Folder: mattergen/data-release/xrd_measurements

File: xrd_measurement_TaCr2O6.dat
5 0.02 90
158
152
130
135
103
93
108
113
117
108
113
112
105
102
100
97
102
98
117
107
112
95
132
123
118
137
132
92
97
155
158
140
168
117
132
148
140
158
192
160
188
178
188
190
205
200
198
197
220
237
212
238
222
227
193
215
230
275
212
220
223
223
215
245
302
278
210
240
218
220
265
252
458
2523
255
223
205
213
188
230
162
193
202
238
193
197
193
193
195
165
215
170
175
182
170
207
157
145
190
235
1600
357
172
247
180
157
147
157
142
137
180
400
380
178
168
160
168
273
167
128
153
230
142
157
177
173
162
207
228
177
155
182
195
158
163
215
155
185
148
180
168
217
163
160
148
192
178
200
180
185
270
203
170
177
190
178
173
187
165
220
947
1393
235
202
208
205
252
173
265
607
193
192
175
180
203
175
203
168
233
205
170
167
182
193
197
227
315
310
183
205
188
190
238
728
320
205
188
180
213
237
215
148
177
185
190
147
177
185
288
733
488
200
208
178
172
160
168
140
185
200
213
180
187
192
190
167
162
197
187
195
208
238
288
228
220
203
180
165
190
205
200
185
198
205
193
198
215
182
163
178
183
202
397
363
185
200
198
183
167
287
242
160
190
193
208
188
152
185
167
175
197
185
195
207
388
327
195
177
177
152
333
258
198
177